"subcode","time","timeelap","phase","trialNr","trialBlock","isTarget","condition","cue","probe","answer","correct","rt"
"V7AEZ9LEEJX0M129","14:51:36","27304","practice","1","1","false","AY","A","C","j","true","1098.5"
"V7AEZ9LEEJX0M129","14:51:45","35916","practice","2","2","true","AX","A","X","f","true","1090.1"
"V7AEZ9LEEJX0M129","14:51:53","44081","practice","3","3","true","AX","A","X","f","true","626.6"
"V7AEZ9LEEJX0M129","14:52:01","51977","practice","4","4","false","BX","V","X","j","true","374.7"
"V7AEZ9LEEJX0M129","14:52:09","60355","practice","5","5","true","AX","A","X","f","true","854.2"
"V7AEZ9LEEJX0M129","14:52:17","68372","practice","6","6","true","AX","A","X","f","true","496.3"
"V7AEZ9LEEJX0M129","14:52:25","76365","practice","7","7","false","BY","C","N","j","true","470.1"
"V7AEZ9LEEJX0M129","14:52:34","84679","practice","8","8","true","AX","A","X","f","true","792.2"
"V7AEZ9LEEJX0M129","14:52:42","92705","practice","9","9","true","AX","A","X","f","true","513.8"
"V7AEZ9LEEJX0M129","14:52:50","100996","practice","10","10","true","AX","A","X","f","true","773.3"
"V7AEZ9LEEJX0M129","14:53:04","115016","experiment","11","1","true","AX","A","X","f","true","680.5"
"V7AEZ9LEEJX0M129","14:53:11","122065","experiment","12","2","false","AY","A","S","j","true","529.2"
"V7AEZ9LEEJX0M129","14:53:18","128972","experiment","13","3","false","BX","V","X","j","true","388.3"
"V7AEZ9LEEJX0M129","14:53:25","136128","experiment","14","4","true","AX","A","X","f","true","638.4"
"V7AEZ9LEEJX0M129","14:53:32","143248","experiment","15","5","true","AX","A","X","f","true","601.6"
"V7AEZ9LEEJX0M129","14:53:39","150197","experiment","16","6","true","AX","A","X","f","true","430.7"
"V7AEZ9LEEJX0M129","14:53:46","157302","experiment","17","7","true","AX","A","X","f","true","586.7"
"V7AEZ9LEEJX0M129","14:53:53","164397","experiment","18","8","true","AX","A","X","f","true","585.3"
"V7AEZ9LEEJX0M129","14:54:00","171316","experiment","19","9","true","AX","A","X","f","true","405.5"
"V7AEZ9LEEJX0M129","14:54:07","178281","experiment","20","10","false","BY","O","O","j","true","450.4"
"V7AEZ9LEEJX0M129","14:54:17","188252","experiment","21","11","false","BY","C","W","j","true","1233.3"
"V7AEZ9LEEJX0M129","14:54:25","195922","experiment","22","12","false","BX","W","X","f","false","1155.1"
"V7AEZ9LEEJX0M129","14:54:32","203375","experiment","23","13","true","AX","A","X","f","true","931.7"
"V7AEZ9LEEJX0M129","14:54:40","211336","experiment","24","14","false","AY","A","E","j","true","1444.4"
"V7AEZ9LEEJX0M129","14:54:48","218588","experiment","25","15","true","AX","A","X","f","true","740.5"
"V7AEZ9LEEJX0M129","14:54:55","225806","experiment","26","16","true","AX","A","X","f","true","700"
"V7AEZ9LEEJX0M129","14:55:03","233517","experiment","27","17","true","AX","A","X","f","true","1192.3"
"V7AEZ9LEEJX0M129","14:55:09","240399","experiment","28","18","true","AX","A","X","f","true","361.7"
"V7AEZ9LEEJX0M129","14:55:17","247557","experiment","29","19","true","AX","A","X","f","true","638.9"
"V7AEZ9LEEJX0M129","14:55:24","254572","experiment","30","20","true","AX","A","X","f","true","497.8"
"V7AEZ9LEEJX0M129","14:55:39","270002","practice","31","1","true","AX","A","X","f","true","549.9"
"V7AEZ9LEEJX0M129","14:55:47","278002","practice","32","2","false","BX","E","X","f","false","471"
"V7AEZ9LEEJX0M129","14:55:56","287029","practice","33","3","false","BY","R","M","-","-","0"
"V7AEZ9LEEJX0M129","14:56:04","294954","practice","34","4","true","AX","A","X","f","true","405.4"
"V7AEZ9LEEJX0M129","14:56:12","303247","practice","35","5","false","AY","A","T","j","true","773"
"V7AEZ9LEEJX0M129","14:56:21","311575","practice","36","6","true","AX","A","X","f","true","810.6"
"V7AEZ9LEEJX0M129","14:56:29","319603","practice","37","7","true","AX","A","X","f","true","504.4"
"V7AEZ9LEEJX0M129","14:56:37","327633","practice","38","8","true","AX","A","X","f","true","513.2"
"V7AEZ9LEEJX0M129","14:56:45","335681","practice","39","9","true","AX","A","X","f","true","527.6"
"V7AEZ9LEEJX0M129","14:56:53","343574","practice","40","10","true","AX","A","X","f","true","364.5"
"V7AEZ9LEEJX0M129","14:57:07","357521","experiment","41","1","false","BX","F","X","j","true","417.5"
"V7AEZ9LEEJX0M129","14:57:14","365136","experiment","42","2","true","AX","A","X","j","false","1092.8"
"V7AEZ9LEEJX0M129","14:57:21","372202","experiment","43","3","true","AX","A","X","f","true","547"
"V7AEZ9LEEJX0M129","14:57:28","379198","experiment","44","4","true","AX","A","X","f","true","476.1"
"V7AEZ9LEEJX0M129","14:57:36","387217","experiment","45","5","false","AY","A","S","-","-","0"
"V7AEZ9LEEJX0M129","14:57:46","396543","experiment","46","6","true","AX","A","X","f","true","803.4"
"V7AEZ9LEEJX0M129","14:57:53","403918","experiment","47","7","true","AX","A","X","f","true","852.6"
"V7AEZ9LEEJX0M129","14:58:00","410995","experiment","48","8","true","AX","A","X","f","true","556.8"
"V7AEZ9LEEJX0M129","14:58:07","417928","experiment","49","9","false","BY","Z","W","j","true","411.1"
"V7AEZ9LEEJX0M129","14:58:14","424987","experiment","50","10","true","AX","A","X","f","true","536.7"
"V7AEZ9LEEJX0M129","14:58:23","434025","experiment","51","11","false","BX","S","X","j","true","457.5"
"V7AEZ9LEEJX0M129","14:58:30","441059","experiment","52","12","true","AX","A","X","f","true","520.1"
"V7AEZ9LEEJX0M129","14:58:37","447974","experiment","53","13","true","AX","A","X","f","true","397.5"
"V7AEZ9LEEJX0M129","14:58:44","454975","experiment","54","14","true","AX","A","X","f","true","478.9"
"V7AEZ9LEEJX0M129","14:58:51","461965","experiment","55","15","false","AY","A","E","f","false","472.1"
"V7AEZ9LEEJX0M129","14:58:59","469986","experiment","56","16","false","BY","C","E","-","-","0"
"V7AEZ9LEEJX0M129","14:59:09","480016","experiment","57","17","true","AX","A","X","-","-","0"
"V7AEZ9LEEJX0M129","14:59:18","488980","experiment","58","18","true","AX","A","X","f","true","438.9"
"V7AEZ9LEEJX0M129","14:59:25","496018","experiment","59","19","true","AX","A","X","j","false","518.1"
"V7AEZ9LEEJX0M129","14:59:33","504041","experiment","60","20","true","AX","A","X","-","-","0"
